Folder: FP-Protokolle/v44/data

Note: v44/README.md
Den Parratt-Algorithmus richtig einzustellen ist unglaublich aufw√§ndig und schwierig.
Am besten ein Notebook verwenden und die Parameter per Schieberegler einstellen.

File: Detector1.UXD
; C:\DIFFDAT1\Praktikum\KochVogt\Detector1.raw(Diffrac Plus V1.01 file) converted by XCH V1.0
_FILEVERSION=2
_SITE='Deutschland'
_USER='Administrator'
_GONIOMETER_CODE=4885
; D8 Theta/Theta; Special
_SAMPLE_CHANGER_CODE=0
_ATTACHMENTS_CODE=0
_GONIOMETER_RADIUS=350
_FIXED_DIVSLIT=0.600000
_FIXED_SAMPLESLIT=0.000000
_FIXED_DETSLIT=11.66
_MONOCHROMATOR=0
; None
_THIN_FILM='N'
_BETA_FILTER='Y'
_FIXED_ANTISLIT=8.340000
_ANALYZER_CODE=0
; None
_DATEMEASURED='28-Oct-2024 10:02:56'
_WL_UNIT='A'
_WL1=1.540600
_WL2=1.544390
_WL3=1.392220
_WLRATIO=0.500000
_ANODE='Cu'
; (Data for Range number 1)
_DRIVE='2THETA'
_STEPTIME=0.999980
_STEPSIZE=0.020000
_STEPMODE='C'
_START=-0.500000
_THETA=0.000000
_2THETA=-0.500000
_KHI=0.000000
_PHI=90
_X=5.172000
_Y=0.500000
_Z=-20
_DIVERGENCE=0.000000
_ANTISCATTER=0.000000
_DETECTOR=5
_DETECTORSLIT='unkn'
_AUX1=0.000000
_AUX2=0.000000
_AUX3=0.000000
_TIMESTARTED=2.000000
_TEMP_RATE=-1.000000
_TEMP_DELAY=-1.000000
_KV=35
_MA=35
_RANGE_WL=1.540600
_3DPLANE=0
_GONIOMETER=-0.508500
_PSDCHANNEL0=0
_2THETACOUNTS
  -0.5000        42
  -0.4800        32
  -0.4600        48
  -0.4400        94
  -0.4200       193
  -0.4000       318
  -0.3800       568
  -0.3600       906
  -0.3400      1291
  -0.3200      1860
  -0.3000      2411
  -0.2800      2996
  -0.2600      3995
  -0.2400      4998
  -0.2200      6377
  -0.2000      7986
  -0.1800      9472
  -0.1600     11313
  -0.1400     13395
  -0.1200     17614
  -0.1000     25683
  -0.0800     44699
  -0.0600     90966
  -0.0400    186274
  -0.0200    317667
   0.0000    369475
   0.0200    343484
   0.0400    224605
   0.0600    106634
   0.0800     52018
   0.1000     28813
   0.1200     20044
   0.1400     14505
   0.1600     10907
   0.1800      9299
   0.2000      7774
   0.2200      6094
   0.2400      5340
   0.2600      4894
   0.2800      4315
   0.3000      3286
   0.3200      2699
   0.3400      2420
   0.3600      2060
   0.3800      1777
   0.4000      1560
   0.4200      1255
   0.4400      1032
   0.4600       807
   0.4800       619
   0.5000       534

File: Reflect1.UXD
; C:\DIFFDAT1\Praktikum\KochVogt\Reflect1.raw(Diffrac Plus V1.01 file) converted by XCH V1.0
_FILEVERSION=2
_SITE='Deutschland'
_USER='Administrator'
_GONIOMETER_CODE=4885
; D8 Theta/Theta; Special
_SAMPLE_CHANGER_CODE=0
_ATTACHMENTS_CODE=0
_GONIOMETER_RADIUS=350
_FIXED_DIVSLIT=0.600000
_FIXED_SAMPLESLIT=0.000000
_FIXED_DETSLIT=11.66
_MONOCHROMATOR=0
; None
_THIN_FILM='N'
_BETA_FILTER='Y'
_FIXED_ANTISLIT=8.340000
_ANALYZER_CODE=0
; None
_DATEMEASURED='28-Oct-2024 10:28:19'
_WL_UNIT='A'
_WL1=1.540600
_WL2=1.544390
_WL3=1.392220
_WLRATIO=0.500000
_ANODE='Cu'
; (Data for Range number 1)
_DRIVE='THETA'
_STEPTIME=5.000660
_STEPSIZE=0.005000
_STEPMODE='C'
_START=0.000000
_THETA=0.000000
_2THETA=0.000000
_KHI=0.000000
_PHI=90
_X=4.611000
_Y=0.600000
_Z=0.361000
_DIVERGENCE=0.000000
_ANTISCATTER=0.000000
_DETECTOR=5
_DETECTORSLIT='unkn'
_AUX1=0.000000
_AUX2=0.000000
_AUX3=0.000000
_TIMESTARTED=2.000000
_TEMP_RATE=-1.000000
_TEMP_DELAY=-1.000000
_KV=35
_MA=35
_RANGE_WL=1.540600
_3DPLANE=0
_GONIOMETER=-0.002400
_PSDCHANNEL0=0
_2THETACOUNTS
   0.0000   1320100
   0.0100   1641420
   0.0200   1150510
   0.0300    594635
   0.0400    422259
   0.0500    368620
   0.0600    375488
   0.0700    390917
   0.0800    420542
   0.0900    453571
   0.1000    486310
   0.1100    518648
   0.1200    553920
   0.1300    587488
   0.1400    623667
   0.1500    644783
   0.1600    617842
   0.1700    656671
   0.1800    665738
   0.1900    716072
   0.2000    722596
   0.2100    667436
   0.2200    537715
   0.2300    284379
   0.2400    117881
   0.2500     89856
   0.2600     93110
   0.2700     62195
   0.2800     28282
   0.2900     24042
   0.3000     33717
   0.3100     30693
   0.3200     16947
   0.3300      9414
   0.3400     12836
   0.3500     16237
   0.3600     12976
   0.3700      7077
   0.3800      5076
   0.3900      7197
   0.4000      8666
   0.4100      6729
   0.4200      3608
   0.4300      2950
   0.4400      4136
   0.4500      4768
   0.4600      3647
   0.4700      2223
   0.4800      1788
   0.4900      2579
   0.5000      2886
   0.5100      2396
   0.5200      1378
   0.5300      1127
   0.5400      1470
   0.5500      1765
   0.5600      1473
   0.5700       915
   0.5800       741
   0.5900       894
   0.6000      1123
   0.6100      1060
   0.6200       675
   0.6300       483
   0.6400       569
   0.6500       716
   0.6600       691
   0.6700       545
   0.6800       329
   0.6900       379
   0.7000       466
   0.7100       489
   0.7200       462
   0.7300       268
   0.7400       252
   0.7500       284
   0.7600       368
   0.7700       307
   0.7800       184
   0.7900       167
   0.8000       233
   0.8100       233
   0.8200       253
   0.8300       170
   0.8400       129
   0.8500       140
   0.8600       175
   0.8700       155
   0.8800       119
   0.8900        79
   0.9000       102
   0.9100       107
   0.9200       114
   0.9300        90
   0.9400        75
   0.9500        59
   0.9600        84
   0.9700        87
   0.9800        66
   0.9900        52
   1.0000        52
   1.0100        52
   1.0200        61
   1.0300        64
   1.0400        54
   1.0500        37
   1.0600        52
   1.0700        46
   1.0800        54
   1.0900        30
   1.1000        36
   1.1100        22
   1.1200        25
   1.1300        28
   1.1400        21
   1.1500        27
   1.1600        19
   1.1700        19
   1.1800        25
   1.1900        23
   1.2000        15
   1.2100        10
   1.2200        13
   1.2300        21
   1.2400        16
   1.2500        12
   1.2600        13
   1.2700         5
   1.2800        10
   1.2900        21
   1.3000        20
   1.3100         7
   1.3200        10
   1.3300        10
   1.3400        10
   1.3500        12
   1.3600         5
   1.3700        10
   1.3800        12
   1.3900         5
   1.4000         8
   1.4100         8
   1.4200         7
   1.4300         6
   1.4400         3
   1.4500         5
   1.4600         8
   1.4700         5
   1.4800         6
   1.4900         5
   1.5000         3
   1.5100         9
   1.5200         3
   1.5300         4
   1.5400         2
   1.5500         4
   1.5600         4
   1.5700         7
   1.5800         3
   1.5900         4
   1.6000         7
   1.6100         2
   1.6200         2
   1.6300         1
   1.6400         1
   1.6500         1
   1.6600         1
   1.6700         4
   1.6800         1
   1.6900         2
   1.7000         1
   1.7100         1
   1.7200         4
   1.7300         1
   1.7400         0
   1.7500         1
   1.7600         2
   1.7700         2
   1.7800         2
   1.7900         1
   1.8000         1
   1.8100         2
   1.8200         1
   1.8300         0
   1.8400         2
   1.8500         0
   1.8600         1
   1.8700         1
   1.8800         2
   1.8900         2
   1.9000         0
   1.9100         1
   1.9200         0
   1.9300         1
   1.9400         1
   1.9500         1
   1.9600         0
   1.9700         0
   1.9800         2
   1.9900         0
   2.0000         1
   2.0100         3
   2.0200         1
   2.0300         3
   2.0400         0
   2.0500         0
   2.0600         1
   2.0700         1
   2.0750         0

File: Reflect2.UXD
; C:\DIFFDAT1\Praktikum\KochVogt\Reflect2.raw(Diffrac Plus V1.01 file) converted by XCH V1.0
_FILEVERSION=2
_SITE='Deutschland'
_USER='Administrator'
_GONIOMETER_CODE=4885
; D8 Theta/Theta; Special
_SAMPLE_CHANGER_CODE=0
_ATTACHMENTS_CODE=0
_GONIOMETER_RADIUS=350
_FIXED_DIVSLIT=0.600000
_FIXED_SAMPLESLIT=0.000000
_FIXED_DETSLIT=11.66
_MONOCHROMATOR=0
; None
_THIN_FILM='N'
_BETA_FILTER='Y'
_FIXED_ANTISLIT=8.340000
_ANALYZER_CODE=0
; None
_DATEMEASURED='28-Oct-2024 11:10:51'
_WL_UNIT='A'
_WL1=1.540600
_WL2=1.544390
_WL3=1.392220
_WLRATIO=0.500000
_ANODE='Cu'
; (Data for Range number 1)
_DRIVE='THETA'
_STEPTIME=5.000660
_STEPSIZE=0.005000
_STEPMODE='C'
_START=0.000000
_THETA=0.000000
_2THETA=0.200000
_KHI=0.000000
_PHI=90
_X=4.611000
_Y=0.600000
_Z=0.361000
_DIVERGENCE=0.000000
_ANTISCATTER=0.000000
_DETECTOR=5
_DETECTORSLIT='unkn'
_AUX1=0.000000
_AUX2=0.000000
_AUX3=0.000000
_TIMESTARTED=2.000000
_TEMP_RATE=-1.000000
_TEMP_DELAY=-1.000000
_KV=35
_MA=35
_RANGE_WL=1.540600
_3DPLANE=0
_GONIOMETER=0.197500
_PSDCHANNEL0=0
_2THETACOUNTS
   0.0000     35316
   0.0100     31365
   0.0200     27204
   0.0300     23881
   0.0400     21680
   0.0500     16897
   0.0600     13563
   0.0700     12625
   0.0800     10712
   0.0900      9524
   0.1000      8338
   0.1100      6846
   0.1200      5677
   0.1300      4630
   0.1400      3677
   0.1500      2816
   0.1600      2132
   0.1700      1587
   0.1800      1249
   0.1900      1049
   0.2000       798
   0.2100       597
   0.2200       487
   0.2300       389
   0.2400       329
   0.2500       262
   0.2600       209
   0.2700       168
   0.2800        98
   0.2900        62
   0.3000        46
   0.3100        50
   0.3200        30
   0.3300        32
   0.3400        35
   0.3500        21
   0.3600        22
   0.3700        21
   0.3800         9
   0.3900        14
   0.4000        16
   0.4100        22
   0.4200        13
   0.4300        14
   0.4400        10
   0.4500         9
   0.4600        11
   0.4700        12
   0.4800         8
   0.4900        13
   0.5000         9
   0.5100        11
   0.5200        10
   0.5300         8
   0.5400         9
   0.5500        11
   0.5600         8
   0.5700         6
   0.5800         7
   0.5900         6
   0.6000         9
   0.6100         8
   0.6200         6
   0.6300         3
   0.6400        10
   0.6500         7
   0.6600         7
   0.6700        10
   0.6800        11
   0.6900         9
   0.7000        12
   0.7100         9
   0.7200        10
   0.7300         7
   0.7400        12
   0.7500         9
   0.7600         6
   0.7700         7
   0.7800         4
   0.7900         4
   0.8000         1
   0.8100         1
   0.8200         3
   0.8300         2
   0.8400         4
   0.8500         0
   0.8600         3
   0.8700         3
   0.8800         0
   0.8900         0
   0.9000         1
   0.9100         1
   0.9200         0
   0.9300         1
   0.9400         1
   0.9500         0
   0.9600         0
   0.9700         0
   0.9800         0
   0.9900         0
   1.0000         0
   1.0100         0
   1.0200         1
   1.0300         1
   1.0400         1
   1.0500         1
   1.0600         0
   1.0700         0
   1.0800         1
   1.0900         1
   1.1000         2
   1.1100         0
   1.1200         0
   1.1300         2
   1.1400         1
   1.1500         0
   1.1600         0
   1.1700         0
   1.1800         1
   1.1900         0
   1.2000         1
   1.2100         0
   1.2200         1
   1.2300         0
   1.2400         0
   1.2500         0
   1.2600         1
   1.2700         0
   1.2800         0
   1.2900         0
   1.3000         0
   1.3100         0
   1.3200         0
   1.3300         0
   1.3400         0
   1.3500         0
   1.3600         0
   1.3700         1
   1.3800         0
   1.3900         0
   1.4000         0
   1.4100         0
   1.4200         0
   1.4300         2
   1.4400         0
   1.4500         0
   1.4600         0
   1.4700         0
   1.4800         3
   1.4900         0
   1.5000         1
   1.5100         0
   1.5200         0
   1.5300         0
   1.5400         0
   1.5500         0
   1.5600         1
   1.5700         0
   1.5800         1
   1.5900         0
   1.6000         1
   1.6100         1
   1.6200         0
   1.6300         0
   1.6400         0
   1.6500         0
   1.6600         0
   1.6700         0
   1.6800         0
   1.6900         0
   1.7000         0
   1.7100         0
   1.7200         0
   1.7300         0
   1.7400         1
   1.7500         0
   1.7600         0
   1.7700         2
   1.7800         0
   1.7900         0
   1.8000         0
   1.8100         0
   1.8200         0
   1.8300         0
   1.8400         0
   1.8500         1
   1.8600         1
   1.8700         0
   1.8800         1
   1.8900         1
   1.9000         0
   1.9100         0
   1.9200         0
   1.9300         0
   1.9400         0
   1.9500         0
   1.9600         0
   1.9700         0
   1.9800         0
   1.9900         0
   2.0000         0
   2.0100         0
   2.0200         0
   2.0300         1
   2.0400         0
   2.0500         0
   2.0600         0
   2.0700         0
   2.0800         0
   2.0900         0
   2.1000         0
   2.1050         0

File: Rocking1_1.UXD
; C:\DIFFDAT1\Praktikum\KochVogt\Rocking1_1.raw(Diffrac Plus V1.01 file) converted by XCH V1.0
_FILEVERSION=2
_SITE='Deutschland'
_USER='Administrator'
_GONIOMETER_CODE=4885
; D8 Theta/Theta; Special
_SAMPLE_CHANGER_CODE=0
_ATTACHMENTS_CODE=0
_GONIOMETER_RADIUS=350
_FIXED_DIVSLIT=0.600000
_FIXED_SAMPLESLIT=0.000000
_FIXED_DETSLIT=11.66
_MONOCHROMATOR=0
; None
_THIN_FILM='N'
_BETA_FILTER='Y'
_FIXED_ANTISLIT=8.340000
_ANALYZER_CODE=0
; None
_DATEMEASURED='28-Oct-2024 10:09:22'
_WL_UNIT='A'
_WL1=1.540600
_WL2=1.544390
_WL3=1.392220
_WLRATIO=0.500000
_ANODE='Cu'
; (Data for Range number 1)
_DRIVE='THETA'
_STEPTIME=1.000000
_STEPSIZE=0.040000
_STEPMODE='S'
_START=-1.000000
_THETA=-1.000000
_2THETA=0.000000
_KHI=0.000000
_PHI=90
_X=4.611000
_Y=0.500000
_Z=0.389000
_DIVERGENCE=0.000000
_ANTISCATTER=0.000000
_DETECTOR=5
_DETECTORSLIT='unkn'
_AUX1=0.000000
_AUX2=0.000000
_AUX3=0.000000
_TIMESTARTED=2.000000
_TEMP_RATE=-1.000000
_TEMP_DELAY=-1.000000
_KV=35
_MA=35
_RANGE_WL=1.540600
_3DPLANE=0
_GONIOMETER=0.000000
_PSDCHANNEL0=0
_2THETACOUNTS
  -1.0000         2
  -0.9600         2
  -0.9200         2
  -0.8800         1
  -0.8400         3
  -0.8000         1
  -0.7600         1
  -0.7200         4
  -0.6800         7
  -0.6400        11
  -0.6000         6
  -0.5600        23
  -0.5200        35
  -0.4800        41
  -0.4400        72
  -0.4000      1739
  -0.3600      4663
  -0.3200     17954
  -0.2800     38623
  -0.2400     59621
  -0.2000     79632
  -0.1600     98736
  -0.1200    117607
  -0.0800    135731
  -0.0400    152060
   0.0000    169086
   0.0400    170655
   0.0800    152762
   0.1200    134070
   0.1600    115189
   0.2000     94576
   0.2400     73873
   0.2800     52180
   0.3200     28818
   0.3600     11513
   0.4000      1834
   0.4400       109
   0.4800        65
   0.5200        36
   0.5600        25
   0.6000        24
   0.6400        11
   0.6800         4
   0.7200         7
   0.7600         4
   0.8000         8
   0.8400         2
   0.8800         4
   0.9200         0
   0.9600         1
   1.0000         1

File: Rocking1_2.UXD
; C:\DIFFDAT1\Praktikum\KochVogt\Rocking1_2.raw(Diffrac Plus V1.01 file) converted by XCH V1.0
_FILEVERSION=2
_SITE='Deutschland'
_USER='Administrator'
_GONIOMETER_CODE=4885
; D8 Theta/Theta; Special
_SAMPLE_CHANGER_CODE=0
_ATTACHMENTS_CODE=0
_GONIOMETER_RADIUS=350
_FIXED_DIVSLIT=0.600000
_FIXED_SAMPLESLIT=0.000000
_FIXED_DETSLIT=11.66
_MONOCHROMATOR=0
; None
_THIN_FILM='N'
_BETA_FILTER='Y'
_FIXED_ANTISLIT=8.340000
_ANALYZER_CODE=0
; None
_DATEMEASURED='28-Oct-2024 10:12:44'
_WL_UNIT='A'
_WL1=1.540600
_WL2=1.544390
_WL3=1.392220
_WLRATIO=0.500000
_ANODE='Cu'
; (Data for Range number 1)
_DRIVE='THETA'
_STEPTIME=1.000000
_STEPSIZE=0.040000
_STEPMODE='S'
_START=-1.000000
_THETA=-1.000000
_2THETA=0.000000
_KHI=0.000000
_PHI=90
_X=4.611000
_Y=0.600000
_Z=0.389000
_DIVERGENCE=0.000000
_ANTISCATTER=0.000000
_DETECTOR=5
_DETECTORSLIT='unkn'
_AUX1=0.000000
_AUX2=0.000000
_AUX3=0.000000
_TIMESTARTED=2.000000
_TEMP_RATE=-1.000000
_TEMP_DELAY=-1.000000
_KV=35
_MA=35
_RANGE_WL=1.540600
_3DPLANE=0
_GONIOMETER=0.000000
_PSDCHANNEL0=0
_2THETACOUNTS
  -1.0000         1
  -0.9600         0
  -0.9200         0
  -0.8800         3
  -0.8400         2
  -0.8000         5
  -0.7600         6
  -0.7200         4
  -0.6800         3
  -0.6400        12
  -0.6000         8
  -0.5600        15
  -0.5200        30
  -0.4800        38
  -0.4400        64
  -0.4000       200
  -0.3600      3659
  -0.3200     16313
  -0.2800     35990
  -0.2400     58045
  -0.2000     77694
  -0.1600     97595
  -0.1200    116553
  -0.0800    134732
  -0.0400    152292
   0.0000    167921
   0.0400    170516
   0.0800    153450
   0.1200    134272
   0.1600    115516
   0.2000     96549
   0.2400     75306
   0.2800     53153
   0.3200     30484
   0.3600     12931
   0.4000      2275
   0.4400       131
   0.4800        48
   0.5200        31
   0.5600        28
   0.6000        22
   0.6400        18
   0.6800        11
   0.7200         3
   0.7600         8
   0.8000         5
   0.8400         7
   0.8800         2
   0.9200         5
   0.9600         2
   1.0000         0

File: Rocking2.UXD
; C:\DIFFDAT1\Praktikum\KochVogt\Rocking2.raw(Diffrac Plus V1.01 file) converted by XCH V1.0
_FILEVERSION=2
_SITE='Deutschland'
_USER='Administrator'
_GONIOMETER_CODE=4885
; D8 Theta/Theta; Special
_SAMPLE_CHANGER_CODE=0
_ATTACHMENTS_CODE=0
_GONIOMETER_RADIUS=350
_FIXED_DIVSLIT=0.600000
_FIXED_SAMPLESLIT=0.000000
_FIXED_DETSLIT=11.66
_MONOCHROMATOR=0
; None
_THIN_FILM='N'
_BETA_FILTER='Y'
_FIXED_ANTISLIT=8.340000
_ANALYZER_CODE=0
; None
_DATEMEASURED='28-Oct-2024 10:18:18'
_WL_UNIT='A'
_WL1=1.540600
_WL2=1.544390
_WL3=1.392220
_WLRATIO=0.500000
_ANODE='Cu'
; (Data for Range number 1)
_DRIVE='THETA'
_STEPTIME=1.000000
_STEPSIZE=0.005000
_STEPMODE='S'
_START=0.000000
_THETA=0.000000
_2THETA=0.300000
_KHI=0.000000
_PHI=90
_X=4.611000
_Y=0.600000
_Z=0.366000
_DIVERGENCE=0.000000
_ANTISCATTER=0.000000
_DETECTOR=5
_DETECTORSLIT='unkn'
_AUX1=0.000000
_AUX2=0.000000
_AUX3=0.000000
_TIMESTARTED=2.000000
_TEMP_RATE=-1.000000
_TEMP_DELAY=-1.000000
_KV=35
_MA=35
_RANGE_WL=1.540600
_3DPLANE=0
_GONIOMETER=0.300000
_PSDCHANNEL0=0
_2THETACOUNTS
   0.0000      3255
   0.0050      3190
   0.0100      3159
   0.0150      3243
   0.0200      3237
   0.0250      3250
   0.0300      3214
   0.0350      3338
   0.0400      3228
   0.0450      3227
   0.0500      3389
   0.0550      3466
   0.0600      3391
   0.0650      3499
   0.0700      3567
   0.0750      3661
   0.0800      3871
   0.0850      4102
   0.0900      4605
   0.0950      5037
   0.1000      5873
   0.1050      6603
   0.1100      7348
   0.1150      8860
   0.1200     11316
   0.1250     14341
   0.1300     19807
   0.1350     31722
   0.1400     57056
   0.1450     93374
   0.1500    116481
   0.1550    128571
   0.1600    128282
   0.1650    113431
   0.1700     70753
   0.1750     31915
   0.1800     16080
   0.1850     12459
   0.1900     10639
   0.1950      9178
   0.2000      7784
   0.2050      6793
   0.2100      5872
   0.2150      5191
   0.2200      4648
   0.2250      4261
   0.2300      4098
   0.2350      3840
   0.2400      3615
   0.2450      3444
   0.2500      3411
   0.2550      3479
   0.2600      3328
   0.2650      3359
   0.2700      3218
   0.2750      3328
   0.2800      3222
   0.2850      3169
   0.2900      3306
   0.2950      3250
   0.3000      3271

File: Xscan1.UXD
; C:\DIFFDAT1\Praktikum\KochVogt\Xscan1.raw(Diffrac Plus V1.01 file) converted by XCH V1.0
_FILEVERSION=2
_SITE='Deutschland'
_USER='Administrator'
_GONIOMETER_CODE=4885
; D8 Theta/Theta; Special
_SAMPLE_CHANGER_CODE=0
_ATTACHMENTS_CODE=0
_GONIOMETER_RADIUS=350
_FIXED_DIVSLIT=0.600000
_FIXED_SAMPLESLIT=0.000000
_FIXED_DETSLIT=11.66
_MONOCHROMATOR=0
; None
_THIN_FILM='N'
_BETA_FILTER='Y'
_FIXED_ANTISLIT=8.340000
_ANALYZER_CODE=0
; None
_DATEMEASURED='28-Oct-2024 10:07:33'
_WL_UNIT='A'
_WL1=1.540600
_WL2=1.544390
_WL3=1.392220
_WLRATIO=0.500000
_ANODE='Cu'
; (Data for Range number 1)
_DRIVE='X'
_STEPTIME=1.000000
_STEPSIZE=1.000000
_STEPMODE='C'
_START=-20
_THETA=0.000000
_2THETA=0.000000
_KHI=0.000000
_PHI=90
_X=-20
_Y=0.500000
_Z=0.389000
_DIVERGENCE=0.000000
_ANTISCATTER=0.000000
_DETECTOR=5
_DETECTORSLIT='unkn'
_AUX1=0.000000
_AUX2=0.000000
_AUX3=0.000000
_TIMESTARTED=5.000000
_TEMP_RATE=-1.000000
_TEMP_DELAY=-1.000000
_KV=35
_MA=35
_RANGE_WL=1.540600
_3DPLANE=0
_GONIOMETER=0.000000
_PSDCHANNEL0=0
_2THETACOUNTS
 -20.0000    375890
 -19.0000    375629
 -18.0000    376238
 -17.0000    374089
 -16.0000    376324
 -15.0000    377857
 -14.0000    376119
 -13.0000    374934
 -12.0000    374302
 -11.0000    377193
 -10.0000    371987
  -9.0000    374626
  -8.0000    377509
  -7.0000    375708
  -6.0000    336635
  -5.0000    194901
  -4.0000    175957
  -3.0000    172307
  -2.0000    176146
  -1.0000    177695
   0.0000    177632
   1.0000    176360
   2.0000    178232
   3.0000    178192
   4.0000    179425
   5.0000    178074
   6.0000    178295
   7.0000    180088
   8.0000    177884
   9.0000    177426
  10.0000    178690
  11.0000    177529
  12.0000    178611
  13.0000    177079
  14.0000    182466
  15.0000    309016
  16.0000    374136
  17.0000    376901
  18.0000    375084
  19.0000    375361
  20.0000    373378

File: Zscan1.UXD
; C:\DIFFDAT1\Praktikum\KochVogt\Zscan1.raw(Diffrac Plus V1.01 file) converted by XCH V1.0
_FILEVERSION=2
_SITE='Deutschland'
_USER='Administrator'
_GONIOMETER_CODE=4885
; D8 Theta/Theta; Special
_SAMPLE_CHANGER_CODE=0
_ATTACHMENTS_CODE=0
_GONIOMETER_RADIUS=350
_FIXED_DIVSLIT=0.600000
_FIXED_SAMPLESLIT=0.000000
_FIXED_DETSLIT=11.66
_MONOCHROMATOR=0
; None
_THIN_FILM='N'
_BETA_FILTER='Y'
_FIXED_ANTISLIT=8.340000
_ANALYZER_CODE=0
; None
_DATEMEASURED='28-Oct-2024 10:05:33'
_WL_UNIT='A'
_WL1=1.540600
_WL2=1.544390
_WL3=1.392220
_WLRATIO=0.500000
_ANODE='Cu'
; (Data for Range number 1)
_DRIVE='Z'
_STEPTIME=1.000000
_STEPSIZE=0.040000
_STEPMODE='C'
_START=-1.000000
_THETA=0.000000
_2THETA=0.000000
_KHI=0.000000
_PHI=90
_X=5.172000
_Y=0.500000
_Z=-1.000000
_DIVERGENCE=0.000000
_ANTISCATTER=0.000000
_DETECTOR=5
_DETECTORSLIT='unkn'
_AUX1=0.000000
_AUX2=0.000000
_AUX3=0.000000
_TIMESTARTED=12
_TEMP_RATE=-1.000000
_TEMP_DELAY=-1.000000
_KV=35
_MA=35
_RANGE_WL=1.540600
_3DPLANE=0
_GONIOMETER=0.000000
_PSDCHANNEL0=0
_2THETACOUNTS
  -1.0000    375266
  -0.9600    374144
  -0.9200    375100
  -0.8800    375716
  -0.8400    373915
  -0.8000    369981
  -0.7600    373717
  -0.7200    376332
  -0.6800    374476
  -0.6400    377573
  -0.6000    378829
  -0.5600    377857
  -0.5200    374855
  -0.4800    373804
  -0.4400    373504
  -0.4000    372762
  -0.3600    373828
  -0.3200    373686
  -0.2800    374176
  -0.2400    374579
  -0.2000    377502
  -0.1600    374555
  -0.1200    374610
  -0.0800    374895
  -0.0400    374950
   0.0000    377107
   0.0400    375045
   0.0800    378157
   0.1200    376775
   0.1600    375282
   0.2000    378323
   0.2400    378197
   0.2800    374879
   0.3200    353912
   0.3600    258425
   0.4000    153963
   0.4400     50080
   0.4800       303
   0.5200         5
   0.5600         0
   0.6000         0
   0.6400         0
   0.6800         6
   0.7200         6
   0.7600        15
   0.8000        52
   0.8400       247
   0.8800       998
   0.9200      3164
   0.9600      5184
   1.0000     12929

File: Zscan2.UXD
; C:\DIFFDAT1\Praktikum\KochVogt\Zscan2.raw(Diffrac Plus V1.01 file) converted by XCH V1.0
_FILEVERSION=2
_SITE='Deutschland'
_USER='Administrator'
_GONIOMETER_CODE=4885
; D8 Theta/Theta; Special
_SAMPLE_CHANGER_CODE=0
_ATTACHMENTS_CODE=0
_GONIOMETER_RADIUS=350
_FIXED_DIVSLIT=0.600000
_FIXED_SAMPLESLIT=0.000000
_FIXED_DETSLIT=11.66
_MONOCHROMATOR=0
; None
_THIN_FILM='N'
_BETA_FILTER='Y'
_FIXED_ANTISLIT=8.340000
_ANALYZER_CODE=0
; None
_DATEMEASURED='28-Oct-2024 10:15:50'
_WL_UNIT='A'
_WL1=1.540600
_WL2=1.544390
_WL3=1.392220
_WLRATIO=0.500000
_ANODE='Cu'
; (Data for Range number 1)
_DRIVE='Z'
_STEPTIME=1.000000
_STEPSIZE=0.020000
_STEPMODE='C'
_START=-0.500000
_THETA=-0.118500
_2THETA=0.000000
_KHI=0.000000
_PHI=90
_X=4.611000
_Y=0.600000
_Z=-0.500000
_DIVERGENCE=0.000000
_ANTISCATTER=0.000000
_DETECTOR=5
_DETECTORSLIT='unkn'
_AUX1=0.000000
_AUX2=0.000000
_AUX3=0.000000
_TIMESTARTED=3.000000
_TEMP_RATE=-1.000000
_TEMP_DELAY=-1.000000
_KV=35
_MA=35
_RANGE_WL=1.540600
_3DPLANE=0
_GONIOMETER=0.000000
_PSDCHANNEL0=0
_2THETACOUNTS
  -0.5000    375527
  -0.4800    379390
  -0.4600    374642
  -0.4400    374492
  -0.4200    374934
  -0.4000    374255
  -0.3800    371814
  -0.3600    376222
  -0.3400    372675
  -0.3200    375076
  -0.3000    373243
  -0.2800    374507
  -0.2600    374594
  -0.2400    377849
  -0.2200    376238
  -0.2000    373789
  -0.1800    374436
  -0.1600    373583
  -0.1400    375945
  -0.1200    376443
  -0.1000    377367
  -0.0800    375226
  -0.0600    374010
  -0.0400    376585
  -0.0200    375985
   0.0000    374855
   0.0200    376419
   0.0400    373757
   0.0600    377130
   0.0800    375558
   0.1000    373591
   0.1200    377675
   0.1400    374128
   0.1600    376293
   0.1800    373599
   0.2000    373899
   0.2200    373638
   0.2400    377423
   0.2600    378244
   0.2800    377217
   0.3000    353312
   0.3200    307081
   0.3400    254135
   0.3600    205503
   0.3800    153860
   0.4000    101745
   0.4200     50534
   0.4400      6352
   0.4600        50
   0.4800        14
   0.5000         9